Ibuprofen
cm^-1,Intensity
148.32,19629.84
150.7,15596.74
153.07,13339.1
155.45,12099.12
157.82,11305.58
160.2,10546.44
162.57,10134.7
164.94,9964.6
167.31,9640.28
169.68,9468.86
172.05,9257.06
174.42,9111.02
176.79,9092.5
179.15,8989.1
181.52,9054.52
183.88,9030.2
186.24,9017.36
188.61,9179.84
190.97,9601.82
193.33,9947.0
195.69,9418.96
198.04,9016.24
200.4,8898.56
202.76,8809.26
205.11,8733.84
207.46,8786.92
209.82,8661.76
212.17,8698.0
214.52,8709.5
216.87,8732.32
219.22,8600.32
221.56,8796.3
223.91,8703.64
226.25,8635.16
228.6,8600.26
230.94,8539.44
233.28,8521.32
235.63,8547.64
237.97,8470.12
240.3,8630.14
242.64,8598.66
244.98,8614.66
247.32,8764.66
249.65,8698.98
251.99,8758.18
254.32,8918.34
256.65,8949.64
258.98,9217.9
261.31,9392.08
263.64,9593.68
265.97,9549.26
268.3,9501.56
270.62,9296.52
272.95,9120.76
275.27,8923.2
277.59,8772.24
279.92,8691.72
282.24,8643.72
284.56,8677.06
286.88,8568.36
289.19,8672.34
291.51,8570.0
293.83,8612.82
296.14,8633.82
298.46,8765.56
300.77,8938.2
303.08,9141.86
305.39,9038.28
307.7,8927.88
310.01,8958.02
312.32,8944.58
314.63,8792.56
316.93,8668.38
319.24,8700.28
321.54,8523.54
323.84,8753.68
326.15,8541.96
328.45,8595.62
330.75,8498.54
333.05,8380.72
335.34,8415.98
337.64,8541.46
339.94,8378.34
342.23,8457.42
344.53,8417.18
346.82,8478.42
349.11,8558.5
351.4,8633.92
353.69,8909.74
355.98,9235.02
358.27,9346.64
360.56,9124.94
362.84,8735.0
365.13,8794.08
367.41,8628.2
369.69,8589.72
371.98,8672.7
374.26,8733.8
376.54,8941.6
378.82,9145.38
381.1,9373.32
383.37,9521.44
385.65,9622.06
387.93,9732.74
390.2,9700.98
392.47,10017.04
394.75,9926.06
397.02,9721.62
399.29,9489.2
401.56,9702.8
403.83,9547.26
406.09,9529.08
408.36,9463.06
410.62,9621.88
412.89,9381.18
415.15,9211.94
417.42,8806.08
419.68,8609.7
421.94,8638.4
424.2,8588.34
426.46,8580.04
428.71,8449.04
430.97,8327.44
433.23,8352.06
435.48,8195.1
437.74,8204.96
439.99,8138.26
442.24,8115.54
444.49,8012.76
446.74,8128.14
448.99,8072.16
451.24,8107.4
453.49,8018.18
455.73,8034.16
457.98,8061.32
460.22,7992.72
462.46,8025.7
464.71,8126.58
466.95,8145.4
469.19,8131.5
471.43,8216.54
473.67,8227.94
475.9,8439.98
478.14,8396.66
480.38,8268.7
482.61,8209.4
484.85,8152.32
487.08,8141.2
489.31,8070.46
491.54,8122.34
493.77,8226.74
496.0,8217.68
498.23,8317.08
500.45,8436.94
502.68,8493.68
504.91,8627.92
507.13,8895.26
509.35,9132.68
511.58,9069.4
513.8,9131.28
516.02,9040.96
518.24,8914.96
520.45,8821.96
522.67,8780.28
524.89,8573.36
527.1,8382.48
529.32,8311.24
531.53,8268.66
533.75,8128.26
535.96,8162.64
538.17,8097.82
540.38,8055.88
542.59,8034.06
544.8,8062.4
547.0,7982.22
549.21,7910.84
551.41,7972.66
553.62,7892.18
555.82,7826.54
558.02,7965.3
560.23,7896.26
562.43,7960.8
564.63,7763.44
566.82,7895.86
569.02,7695.72
571.22,7811.4
573.41,7770.8
575.61,7755.84
577.8,7775.04
580.0,7802.68
582.19,7851.06
584.38,7741.6
586.57,7736.02
588.76,7731.24
590.95,7690.34
593.14,7705.24
595.32,7641.14
597.51,7734.52
599.69,7673.38
601.88,7725.5
604.06,7739.26
606.24,7731.24
608.42,7799.0
610.6,7828.08
612.78,7862.32
614.96,7967.06
617.14,8138.14
619.31,8245.46
621.49,8402.68
623.66,8651.52
625.84,8992.82
628.01,9657.9
630.18,10231.66
632.35,11091.76
634.52,12120.34
636.69,11526.38
638.86,10492.14
641.02,10043.88
643.19,9511.3
645.36,9112.86
647.52,8768.78
649.68,8587.44
651.85,8405.02
654.01,8424.04
656.17,8394.44
658.33,8475.08
660.49,8388.26
662.64,8256.78
664.8,7984.62
666.96,7925.24
669.11,7832.08
671.27,7765.12
673.42,7771.54
675.57,7675.56
677.72,7598.46
679.88,7576.56
682.02,7551.32
684.17,7563.48
686.32,7459.7
688.47,7523.32
690.61,7419.34
692.76,7435.02
694.9,7330.48
697.05,7320.08
699.19,7239.52
701.33,7247.8
703.47,7272.34
705.61,7201.46
707.75,7092.68
709.89,7113.98
712.03,7113.96
714.16,7189.4
716.3,7102.56
718.43,7202.76
720.56,7082.08
722.7,7122.64
724.83,7073.34
726.96,7112.66
729.09,7091.6
731.22,7173.94
733.35,7307.92
735.47,7264.96
737.6,7515.08
739.72,8014.2
741.85,8798.92
743.97,9363.02
746.09,8462.86
748.22,7578.36
750.34,7246.26
752.46,7086.74
754.58,7123.98
756.69,7042.34
758.81,7004.64
760.93,7001.98
763.04,6985.64
765.16,6997.04
767.27,7026.0
769.38,6978.34
771.5,7020.18
773.61,7057.9
775.72,7107.94
777.83,7386.6
779.93,7869.14
782.04,7935.98
784.15,7361.84
786.25,7065.7
788.36,7076.72
790.46,6991.06
792.57,6983.72
794.67,6969.86
796.77,6997.86
798.87,6949.12
800.97,6920.86
803.07,6962.88
805.17,7039.58
807.26,7118.84
809.36,7114.9
811.45,7222.74
813.55,7554.74
815.64,8128.14
817.73,8658.18
819.82,8109.92
821.92,7647.58
824.01,7702.74
826.09,8258.52
828.18,9561.22
830.27,10859.1
832.36,10713.44
834.44,9173.28
836.53,7995.88
838.61,7338.74
840.69,7079.22
842.77,7066.74
844.85,7009.94
846.94,7033.86
849.01,7086.8
851.09,6911.74
853.17,6849.82
855.25,6787.42
857.32,6691.64
859.4,6687.0
861.47,6711.04
863.54,6776.6
865.62,6681.76
867.69,6596.46
869.76,6534.64
871.83,6563.5
873.9,6635.6
875.97,6743.26
878.03,6770.36
880.1,6728.52
882.16,6571.32
884.23,6427.34
886.29,6418.38
888.36,6450.5
890.42,6441.44
892.48,6417.32
894.54,6344.74
896.6,6469.5
898.66,6344.72
900.71,6427.3
902.77,6383.34
904.83,6405.72
906.88,6317.3
908.94,6347.3
910.99,6382.84
913.04,6467.26
915.09,6515.94
917.14,6679.56
919.19,6526.0
921.24,6399.74
923.29,6354.92
925.34,6285.7
927.38,6285.34
929.43,6294.7
931.47,6290.84
933.52,6302.96
935.56,6428.78
937.6,6687.06
939.65,6884.22
941.69,6921.08
943.73,6589.84
945.76,6571.44
947.8,6611.56
949.84,6481.9
951.88,6512.42
953.91,6655.36
955.95,6788.74
957.98,6559.9
960.01,6376.94
962.04,6202.94
964.07,6247.86
966.11,6157.14
968.13,6050.34
970.16,6063.36
972.19,6070.88
974.22,6057.28
976.24,6022.22
978.27,5999.42
980.29,6030.06
982.32,6026.58
984.34,5965.62
986.36,5997.6
988.38,5973.04
990.4,5983.4
992.42,5971.04
994.44,6121.08
996.46,6089.04
998.47,6188.88
1000.49,6327.28
1002.51,6651.66
1004.52,6919.34
1006.53,6797.62
1008.55,6555.54
1010.56,6146.06
1012.57,6080.76
1014.58,6004.02
1016.59,6003.14
1018.6,6048.26
1020.6,5972.86
1022.61,5890.8
1024.62,5938.46
1026.62,5870.06
1028.63,5859.88
1030.63,5875.98
1032.63,5864.4
1034.63,5947.44
1036.64,5829.0
1038.64,5821.54
1040.63,5879.16
1042.63,5836.38
1044.63,5790.42
1046.63,5887.94
1048.62,5803.06
1050.62,5829.06
1052.61,5896.14
1054.61,6047.94
1056.6,5908.22
1058.59,5926.14
1060.58,5992.68
1062.57,6076.1
1064.56,6027.38
1066.55,5950.8
1068.54,5848.4
1070.52,5944.78
1072.51,5875.54
1074.5,5814.92
1076.48,5775.9
1078.46,5780.36
1080.45,5754.24
1082.43,5778.82
1084.41,5823.32
1086.39,5982.46
1088.37,5965.92
1090.35,6007.48
1092.33,5979.2
1094.3,5774.16
1096.28,5728.94
1098.25,5724.78
1100.23,5741.2
1102.2,5823.1
1104.18,5706.34
1106.15,5781.44
1108.12,6040.08
1110.09,6380.24
1112.06,6664.22
1114.03,6559.18
1116.0,6243.98
1117.96,5915.66
1119.93,5835.48
1121.89,5742.08
1123.86,5627.54
1125.82,5683.42
1127.79,5524.1
1129.75,5567.36
1131.71,5396.68
1133.67,5402.32
1135.63,5298.44
1137.59,5379.22
1139.55,5273.16
1141.51,5271.22
1143.46,5244.7
1145.42,5290.12
1147.37,5344.0
1149.33,5351.58
1151.28,5237.06
1153.23,5277.74
1155.19,5302.36
1157.14,5307.88
1159.09,5305.42
1161.04,5494.12
1162.99,5487.04
1164.93,5415.72
1166.88,5474.38
1168.83,5464.76
1170.77,5555.72
1172.72,5785.68
1174.66,6200.42
1176.6,6809.98
1178.55,7258.1
1180.49,6983.16
1182.43,6414.74
1184.37,5857.82
1186.31,5514.36
1188.24,5345.0
1190.18,5212.72
1192.12,5216.64
1194.05,5167.06
1195.99,5278.66
1197.92,5347.78
1199.86,5679.6
1201.79,6131.36
1203.72,6498.04
1205.65,6384.1
1207.58,5918.24
1209.51,5564.28
1211.44,5416.76
1213.37,5458.66
1215.3,5285.3
1217.22,5159.02
1219.15,5084.14
1221.07,5086.56
1223.0,5126.68
1224.92,5085.2
1226.84,5106.14
1228.76,4997.9
1230.68,4995.52
1232.6,4898.2
1234.52,4846.82
1236.44,4796.36
1238.36,4787.98
1240.28,4755.18
1242.19,4709.94
1244.11,4961.58
1246.02,4782.02
1247.94,4762.22
1249.85,4652.48
1251.76,4690.78
1253.67,4702.5
1255.58,4689.06
1257.49,4737.46
1259.4,4688.18
1261.31,4750.5
1263.22,4795.36
1265.12,4789.56
1267.03,4775.5
1268.93,4796.32
1270.84,4730.22
1272.74,4734.26
1274.64,4813.74
1276.55,4827.54
1278.45,4963.46
1280.35,5133.4
1282.25,5297.34
1284.15,5103.14
1286.04,4863.3
1287.94,4785.12
1289.84,4751.22
1291.73,4697.9
1293.63,4741.16
1295.52,4670.72
1297.42,4607.12
1299.31,4564.96
1301.2,4598.86
1303.09,4634.38
1304.98,4626.98
1306.87,4642.58
1308.76,4601.7
1310.65,4471.42
1312.53,4520.1
1314.42,4588.78
1316.31,4537.08
1318.19,4620.6
1320.08,4674.92
1321.96,4729.3
1323.84,4653.76
1325.72,4793.48
1327.6,4738.84
1329.48,4683.58
1331.36,4805.18
1333.24,4804.54
1335.12,4892.64
1337.0,4985.26
1338.87,4968.24
1340.75,4857.62
1342.62,4495.4
1344.5,4431.72
1346.37,4398.3
1348.24,4376.0
1350.12,4291.18
1351.99,4286.1
1353.86,4263.26
1355.73,4273.24
1357.6,4226.76
1359.46,4237.94
1361.33,4262.36
1363.2,4325.88
1365.06,4370.2
1366.93,4255.0
1368.79,4250.74
1370.66,4207.58
1372.52,4205.38
1374.38,4228.7
1376.24,4235.06
1378.1,4235.08
1379.96,4187.18
1381.82,4137.58
1383.68,4103.8
1385.54,4108.12
1387.39,4136.5
1389.25,4147.72
1391.1,4087.82
1392.96,4086.24
1394.81,4045.8
1396.66,4097.06
1398.52,4130.2
1400.37,4075.82
1402.22,4077.48
1404.07,4112.76
1405.92,4054.86
1407.77,4099.7
1409.61,4089.26
1411.46,4078.84
1413.31,4165.8
1415.15,4150.36
1417.0,4121.5
1418.84,4104.66
1420.68,4147.06
1422.53,4197.94
1424.37,4175.88
1426.21,4179.86
1428.05,4373.98
1429.89,4205.78
1431.73,4142.0
1433.56,4204.12
1435.4,4230.84
1437.24,4222.76
1439.07,4247.58
1440.91,4257.18
1442.74,4270.9
1444.57,4362.26
1446.41,4514.24
1448.24,4765.04
1450.07,4787.74
1451.9,4644.76
1453.73,4559.44
1455.56,4478.9
1457.39,4501.78
1459.21,4448.86
1461.04,4384.12
1462.87,4214.9
1464.69,4022.6
1466.52,3948.94
1468.34,3867.06
1470.16,3862.58
1471.99,3797.42
1473.81,3753.8
1475.63,3813.3
1477.45,3725.24
1479.27,3721.22
1481.09,3763.3
1482.9,3700.9
1484.72,3677.5
1486.54,3668.1
1488.35,3673.04
1490.17,3690.38
1491.98,3673.62
1493.79,3696.22
1495.61,3645.18
1497.42,3662.02
1499.23,3646.18
1501.04,3644.7
1502.85,3621.78
1504.66,3652.36
1506.47,3610.84
1508.28,3619.84
1510.08,3619.66
1511.89,3566.66
1513.69,3612.72
1515.5,3520.18
1517.3,3524.42
1519.1,3560.98
1520.91,3566.6
1522.71,3512.6
1524.51,3519.26
1526.31,3536.26
1528.11,3543.8
1529.91,3509.34
1531.71,3446.66
1533.5,3470.44
1535.3,3553.96
1537.1,3436.62
1538.89,3449.64
1540.69,3464.48
1542.48,3448.86
1544.27,3443.28
1546.06,3457.48
1547.86,3432.02
1549.65,3482.08
1551.44,3467.44
1553.23,3415.22
1555.01,3469.72
1556.8,3395.6
1558.59,3381.2
1560.38,3359.78
1562.16,3472.36
1563.95,3435.34
1565.73,3412.04
1567.51,3520.98
1569.3,3484.28
1571.08,3543.18
1572.86,3558.16
1574.64,3528.44
1576.42,3508.94
1578.2,3463.64
1579.98,3370.74
1581.76,3366.52
1583.53,3361.84
1585.31,3475.6
1587.09,3388.7
1588.86,3374.98
1590.64,3382.9
1592.41,3462.36
1594.18,3463.9
1595.95,3539.46
1597.73,3642.94
1599.5,3801.98
1601.27,4052.74
1603.03,4425.94
1604.8,4662.22
1606.57,4634.22
1608.34,4264.3
1610.1,3890.7
1611.87,3666.76
1613.64,3461.36
1615.4,3382.48
1617.16,3361.8
1618.93,3290.5
1620.69,3252.38
1622.45,3284.08
1624.21,3269.78
1625.97,3259.58
1627.73,3175.3
1629.49,3208.0
1631.25,3188.5
1633.0,3207.08
1634.76,3132.68
1636.52,3149.74
1638.27,3145.34
1640.02,3171.52
1641.78,3127.46
1643.53,3200.08
1645.28,3175.2
1647.03,3179.52
1648.79,3204.02
1650.54,3223.16
1652.29,3186.78
1654.03,3141.9
1655.78,3155.52
1657.53,3150.36
1659.28,3100.4
1661.02,3085.7
1662.77,3113.36
1664.51,3105.26
1666.26,3120.26
1668.0,3084.44
1669.74,3042.5
1671.48,3154.42
1673.22,3038.16
1674.96,3001.32
1676.7,3052.08
1678.44,3030.0
1680.18,2997.12
1681.92,3080.6
1683.65,2994.22
1685.39,2976.82
1687.13,2958.52
1688.86,2940.82
1690.59,2930.34
1692.33,2925.26
1694.06,2939.6
1695.79,2946.86
1697.52,2942.62
1699.25,2883.84
1700.98,2916.2
1702.71,2873.4
1704.44,2909.74
1706.17,2872.38
1707.9,2840.8
1709.62,2876.68
1711.35,2950.08
1713.07,2881.72
1714.8,2907.98
1716.52,2843.72
1718.25,2857.66
1719.97,2846.32
1721.69,2840.54
1723.41,2806.72
1725.13,2839.46
1726.85,2807.24
1728.57,2937.72
1730.29,2842.1
1732.0,2789.06
1733.72,2786.86
1735.44,2819.4
1737.15,2828.14
1738.87,2779.64
1740.58,2787.48
1742.29,2867.74
1744.01,2825.38
1745.72,2814.96
1747.43,2766.46
1749.14,2854.14
1750.85,2910.24
1752.56,2753.0
1754.27,2806.48
1755.98,2720.62
1757.68,2732.54
1759.39,2748.32
1761.1,2738.26
1762.8,2757.92
1764.5,2706.78
1766.21,2766.16
1767.91,2706.88
1769.61,2792.88
1771.32,2685.52
1773.02,2668.8
1774.72,2776.74
1776.42,2654.18
1778.12,2654.76
1779.81,2656.06
1781.51,2657.96
1783.21,2636.78
1784.9,2669.02
1786.6,2623.96
1788.3,2635.14
1789.99,2607.08
1791.68,2625.06
1793.38,2616.92
1795.07,2614.68
1796.76,2681.56
1798.45,2646.24
1800.14,2652.42
1801.83,2660.06
1803.52,2608.22
1805.21,2611.82
1806.9,2636.92
1808.58,2631.96
1810.27,2582.92
1811.95,2565.9
1813.64,2600.18
1815.32,2594.64
1817.01,2642.2
1818.69,2536.7
1820.37,2558.14
1822.05,2550.26
1823.73,2555.26
1825.41,2565.54
1827.09,2584.06
1828.77,2529.54
1830.45,2521.34
1832.13,2511.08
1833.8,2478.56
1835.48,2470.36
1837.16,2491.56
1838.83,2544.7
1840.5,2537.44
1842.18,2474.96
1843.85,2513.96
1845.52,2484.78
1847.19,2465.16
1848.87,2485.5
1850.54,2506.36
1852.2,2486.08
1853.87,2492.96
1855.54,2473.92
1857.21,2438.02
1858.88,2484.26
1860.54,2609.52
1862.21,2482.1
1863.87,2456.4
1865.54,2466.62
1867.2,2498.1
1868.86,2443.98
1870.53,2434.36
1872.19,2492.7
1873.85,2487.38
1875.51,2416.0
1877.17,2422.82
1878.83,2468.6
1880.48,2511.34
1882.14,2407.28
1883.8,2398.92
1885.46,2418.46
1887.11,2450.08
1888.77,2387.16
1890.42,2553.16
1892.07,2413.28
1893.73,2391.52
1895.38,2357.2
1897.03,2357.78
1898.68,2403.66
1900.33,2330.14
1901.98,2403.94
1903.63,2492.22
1905.28,2363.02
1906.93,2342.7
1908.57,2412.38
1910.22,2350.1
1911.87,2332.1
1913.51,2319.68
1915.16,2405.94
1916.8,2325.78
1918.44,2344.0
1920.09,2292.44
1921.73,2392.28
1923.37,2309.78
1925.01,2313.06
1926.65,2296.02
1928.29,2259.2
1929.93,2253.9
1931.56,2368.38
1933.2,2332.04
1934.84,2295.02
1936.47,2274.24
1938.11,2372.86
1939.74,2277.04
1941.38,2315.12
1943.01,2236.82
1944.64,2239.02
1946.28,2278.56
1947.91,2234.6
1949.54,2284.48
1951.17,2292.12
1952.8,2273.24
1954.43,2211.02
1956.06,2300.2
1957.68,2215.12
1959.31,2286.72
1960.94,2240.74
1962.56,2234.66
1964.19,2177.1
1965.81,2287.5
1967.44,2153.38
1969.06,2180.02
1970.68,2173.66
1972.3,2181.54
1973.92,2177.68
1975.55,2240.72
1977.16,2158.14
1978.78,2166.72
1980.4,2148.12
1982.02,2196.26
1983.64,2179.16
1985.25,2244.46
1986.87,2129.82
1988.49,2171.02
1990.1,2301.82
1991.72,2161.22
1993.33,2153.34
1994.94,2115.84
1996.55,2135.58
1998.17,2154.84
1999.78,2140.8
2001.39,2140.08
2003.0,2159.32
2004.61,2088.02
2006.21,2087.1
2007.82,2095.22
2009.43,2079.46
2011.04,2093.2
2012.64,2152.56
2014.25,2115.4
2015.85,2071.78
2017.46,2120.94
2019.06,2064.16
2020.66,2071.4
2022.26,2111.82
2023.86,2108.02
2025.47,2141.84
2027.07,2054.46
2028.67,2131.96
2030.26,2105.78
2031.86,2073.06
2033.46,2051.38
2035.06,2130.98
2036.65,2047.42
2038.25,2082.42
2039.84,2113.58
2041.44,2019.18
2043.03,2043.0
2044.63,2027.44
2046.22,2080.84
2047.81,2035.98
2049.4,2057.62
2050.99,2042.86
2052.58,2013.5
2054.17,2060.1
2055.76,2031.9
2057.35,1996.28
2058.94,2000.46
2060.52,2000.54
2062.11,2075.0
2063.7,2040.28
2065.28,2058.46
2066.87,1969.12
2068.45,2002.68
2070.03,2227.6
2071.62,2029.84
2073.2,2001.0
2074.78,1962.86
2076.36,2029.3
2077.94,1990.54
2079.52,1968.88
2081.1,1950.1
2082.68,2070.2
2084.26,1987.26
2085.83,2000.98
2087.41,1968.72
2088.98,2095.58
2090.56,1998.64
2092.13,1952.4
2093.71,1945.64
2095.28,1967.46
2096.85,2019.78
2098.43,1935.86
2100.0,1914.74
2101.57,1949.0
2103.14,1927.72
2104.71,1911.92
2106.28,1900.14
2107.85,1928.26
2109.41,1957.7
2110.98,2010.9
2112.55,1920.96
2114.11,1907.16
2115.68,1913.44
2117.24,1908.2
2118.81,1892.46
2120.37,1919.82
2121.93,1942.64
2123.5,1895.06
2125.06,1884.14
2126.62,1930.1
2128.18,1873.38
2129.74,1878.48
2131.3,1848.34
2132.86,1923.22
2134.41,1912.46
2135.97,1871.84
2137.53,1925.5
2139.08,1888.22
2140.64,1868.28
2142.2,1880.38
2143.75,1837.14
2145.3,1856.66
2146.86,1870.0
2148.41,1832.7
2149.96,2052.34
2151.51,2004.46
2153.06,1889.42
2154.61,1835.28
2156.16,1850.36
2157.71,1826.56
2159.26,1839.86
2160.81,1913.78
2162.35,1930.6
2163.9,1871.4
2165.45,1845.04
2166.99,1857.96
2168.54,1802.58
2170.08,1816.58
2171.62,1791.66
2173.17,1831.02
2174.71,1816.82
2176.25,1877.84
2177.79,1792.6
2179.33,1838.22
2180.87,1841.94
2182.41,1839.82
2183.95,1821.42
2185.49,1806.3
2187.02,1782.66
2188.56,1805.92
2190.1,1764.9
2191.63,1811.2
2193.17,1840.38
2194.7,1814.48
2196.24,1829.1
2197.77,1783.5
2199.3,1875.5
2200.83,1810.56
2202.36,1889.36
2203.89,1763.3
2205.42,1782.66
2206.95,1770.54
2208.48,1808.58
2210.01,1752.88
2211.54,1789.1
2213.07,1741.38
2214.59,1765.58
2216.12,1854.8
2217.64,1777.16
2219.17,1825.64
2220.69,1751.76
2222.22,1835.28
2223.74,1812.4
2225.26,1813.46
2226.78,1767.06
2228.31,1750.68
2229.83,1951.26
2231.35,1759.54
2232.87,1815.78
2234.38,1759.46
2235.9,1795.38
2237.42,1748.98
2238.94,1816.48
2240.45,1732.74
2241.97,1711.54
2243.48,1684.78
2245.0,1710.16
2246.51,1732.92
2248.03,1712.44
2249.54,1758.66
2251.05,1732.24
2252.56,1701.62
2254.07,1772.0
2255.59,1732.74
2257.1,1692.66
2258.6,1800.46
2260.11,1689.12
2261.62,1671.04
2263.13,1675.94
2264.64,1736.04
2266.14,1688.0
2267.65,1703.14
2269.15,1683.1
2270.66,1691.58
2272.16,1681.74
2273.67,1749.0
2275.17,1681.06
2276.67,1679.3
2278.17,1687.9
2279.67,1658.54
2281.17,1710.74
2282.67,1670.12
2284.17,1793.04
2285.67,1645.66
2287.17,1707.12
2288.67,1689.38
2290.17,1692.62
2291.66,1644.64
2293.16,1678.46
2294.65,1734.78
2296.15,1685.06
2297.64,1640.78
2299.14,1672.3
2300.63,1624.92
2302.12,1645.58
2303.61,1647.22
2305.1,1644.58
2306.59,1669.74
2308.08,1615.02
2309.57,1651.7
2311.06,1651.64
2312.55,1661.32
2314.04,1607.1
2315.53,1657.96
2317.01,1619.42
2318.5,1609.22
2319.98,1709.4
2321.47,1645.5
2322.95,1654.86
2324.44,1685.78
2325.92,1660.42
2327.4,1652.26
2328.89,1637.2
2330.37,1594.22
2331.85,1586.44
2333.33,1623.04
2334.81,1630.9
2336.29,1611.6
2337.76,1623.26
2339.24,1595.46
2340.72,1582.12
2342.2,1666.48
2343.67,1574.6
2345.15,1611.5
2346.62,1644.08
2348.1,1610.48
2349.57,1583.48
2351.05,1575.24
2352.52,1597.04
2353.99,1571.54
2355.46,1608.52
2356.93,1668.84
2358.4,1611.34
2359.87,1583.7
2361.34,1558.7
2362.81,1547.7
2364.28,1529.86
2365.75,1607.5
2367.21,1562.08
2368.68,1560.68
2370.15,1550.26
2371.61,1540.42
2373.08,1614.0
2374.54,1613.32
2376.01,1536.82
2377.47,1557.52
2378.93,1597.1
2380.39,1575.82
2381.85,1623.28
2383.32,1973.08
2384.78,1589.56
2386.24,1524.52
2387.69,1533.56
2389.15,1519.92
2390.61,1513.6
2392.07,1595.5
2393.53,1600.04
2394.98,1564.5
2396.44,1525.76
2397.89,1531.48
2399.35,1544.48
2400.8,1522.9
2402.25,1583.7
2403.71,1588.22
2405.16,1615.86
2406.61,1515.7
2408.06,1506.26
2409.51,1490.06
2410.96,1530.6
2412.41,1594.82
2413.86,1506.84
2415.31,1519.88
2416.76,1518.12
2418.21,1518.14
2419.65,1540.28
2421.1,1485.88
2422.54,1488.9
2423.99,1504.68
2425.43,1490.58
2426.88,1491.44
2428.32,1518.82
2429.76,1478.38
2431.21,1468.98
2432.65,1483.22
2434.09,1511.64
2435.53,1563.88
2436.97,1482.8
2438.41,1518.76
2439.85,1477.04
2441.29,1534.7
2442.72,1520.62
2444.16,1471.08
2445.6,1492.76
2447.03,1475.26
2448.47,1463.76
2449.9,1487.66
2451.34,1469.68
2452.77,1491.0
2454.21,1530.36
2455.64,1550.82
2457.07,1458.16
2458.5,1497.24
2459.93,1463.68
2461.36,1496.52
2462.79,1531.14
2464.22,1496.3
2465.65,1431.82
2467.08,1486.02
2468.51,1449.86
2469.94,1448.3
2471.36,1538.38
2472.79,1471.94
2474.21,1455.38
2475.64,1460.82
2477.06,1451.96
2478.49,1527.52
2479.91,1556.96
2481.33,1444.86
2482.76,1454.82
2484.18,1439.32
2485.6,1500.38
2487.02,1456.7
2488.44,1559.06
2489.86,1492.52
2491.28,1478.8
2492.7,1430.18
2494.12,1434.96
2495.53,1484.84
2496.95,1491.9
2498.37,1432.36
2499.78,1470.94
2501.2,1460.96
2502.61,1485.02
2504.03,1423.18
2505.44,1444.08
2506.85,1432.22
2508.26,1515.28
2509.68,1481.3
2511.09,1405.16
2512.5,1484.84
2513.91,1435.76
2515.32,1418.0
2516.73,1470.12
2518.14,1493.3
2519.54,1520.84
2520.95,1506.58
2522.36,1419.72
2523.77,1412.42
2525.17,1459.94
2526.58,1453.4
2527.98,1429.54
2529.39,1525.86
2530.79,1411.34
2532.19,1410.54
2533.6,1521.1
2535.0,1476.08
2536.4,1394.22
2537.8,1413.18
2539.2,1445.74
2540.6,1424.34
2542.0,1408.88
2543.4,1418.1
2544.8,1451.54
2546.2,1566.52
2547.59,1461.62
2548.99,1415.68
2550.39,1408.0
2551.78,1412.08
2553.18,1411.02
2554.57,1435.56
2555.96,1455.2
2557.36,1430.94
2558.75,1399.42
2560.14,1430.76
2561.54,1404.3
2562.93,1432.48
2564.32,1464.08
2565.71,1449.42
2567.1,1404.4
2568.49,1416.9
2569.88,1385.14
2571.26,1404.16
2572.65,1405.5
2574.04,1421.16
2575.43,1399.78
2576.81,1394.8
2578.2,1373.98
2579.58,1466.42
2580.97,1396.22
2582.35,1475.24
2583.73,1397.72
2585.12,1377.04
2586.5,1372.14
2587.88,1413.86
2589.26,1407.52
2590.64,1425.98
2592.02,1367.24
2593.4,1407.2
2594.78,1469.08
2596.16,1364.92
2597.54,1445.04
2598.91,1400.46
2600.29,1375.08
2601.67,1431.28
2603.04,1447.74
2604.42,1375.02
2605.79,1367.52
2607.17,1386.2
2608.54,1457.08
2609.92,1395.62
2611.29,1463.86
2612.66,1378.48
2614.03,1406.26
2615.4,1349.34
2616.77,1376.72
2618.14,1441.18
2619.51,1358.26
2620.88,1395.24
2622.25,1429.98
2623.62,1391.36
2624.99,1407.36
2626.35,1388.06
2627.72,1443.78
2629.09,1453.78
2630.45,1386.32
2631.82,1351.44
2633.18,1483.7
2634.54,1358.44
2635.91,1412.22
2637.27,1408.8
2638.63,1401.72
2639.99,1340.3
2641.36,1346.0
2642.72,1378.92
2644.08,1365.68
2645.44,1372.86
2646.79,1343.0
2648.15,1346.32
2649.51,1367.74
2650.87,1412.54
2652.23,1431.12
2653.58,1765.08
2654.94,1380.5
2656.29,1333.3
2657.65,1358.82
2659.0,1320.1
2660.36,1363.68
2661.71,1617.68
2663.06,1418.86
2664.42,1304.34
2665.77,1366.14
2667.12,1451.98
2668.47,1371.64
2669.82,1327.9
2671.17,1351.74
2672.52,1348.26
2673.87,1359.42
2675.22,1327.94
2676.56,1307.0
2677.91,1351.92
2679.26,1328.0
2680.6,1328.04
2681.95,1408.68
2683.29,1318.64
2684.64,1297.48
2685.98,1399.44
2687.33,1317.62
2688.67,1292.62
2690.01,1364.24
2691.35,1301.08
2692.69,1329.8
2694.04,1307.88
2695.38,1346.04
2696.72,1314.44
2698.06,1342.2
2699.39,1360.42
2700.73,1309.5
2702.07,1333.02
2703.41,1329.88
2704.74,1338.72
2706.08,1309.9
2707.42,1314.8
2708.75,1333.02
2710.09,1329.68
2711.42,1349.64
2712.76,1320.12
2714.09,1355.78
2715.42,1360.14
2716.75,1338.94
2718.09,1330.84
2719.42,1311.6
2720.75,1375.64
2722.08,1309.32
2723.41,1301.44
2724.74,1338.78
2726.06,1294.06
2727.39,1302.84
2728.72,1319.88
2730.05,1309.48
2731.37,1475.32
2732.7,1302.94
2734.03,1352.3
2735.35,1311.52
2736.68,1367.34
2738.0,1298.08
2739.32,1302.14
2740.65,1447.2
2741.97,1267.22
2743.29,1274.16
2744.61,1272.54
2745.93,1299.68
2747.25,1294.5
2748.57,1308.1
2749.89,1306.14
2751.21,1300.1
2752.53,1308.02
2753.85,1290.62
2755.17,1290.08
2756.48,1266.74
2757.8,1282.26
2759.12,1267.56
2760.43,1307.24
2761.75,1341.48
2763.06,1305.54
2764.38,1254.34
2765.69,1273.34
2767.0,1314.34
2768.31,1275.64
2769.63,1304.1
2770.94,1304.22
2772.25,1276.18
2773.56,1265.16
2774.87,1262.84
2776.18,1324.2
2777.49,1270.22
2778.8,1318.32
2780.1,1262.48
2781.41,1320.12
2782.72,1297.78
2784.03,1258.74
2785.33,1309.04
2786.64,1269.58
2787.94,1285.6
2789.25,1396.72
2790.55,1312.3
2791.85,1297.18
2793.16,1241.58
2794.46,1277.92
2795.76,1277.6
2797.06,1281.94
2798.36,1338.3
2799.66,1276.56
2800.96,1320.26
2802.26,1292.44
2803.56,1278.84
2804.86,1250.98
2806.16,1266.44
2807.46,1287.8
2808.75,1316.56
2810.05,1268.8
2811.35,1327.76
2812.64,1263.94
2813.94,1270.0
2815.23,1281.24
2816.53,1449.3
2817.82,1328.74
2819.11,1254.7
2820.4,1266.76
2821.7,1262.82
2822.99,1289.18
2824.28,1282.2
2825.57,1295.76
2826.86,1265.48
2828.15,1267.34
2829.44,1299.2
2830.73,1259.26
2832.02,1284.32
2833.3,1311.32
2834.59,1359.02
2835.88,1250.64
2837.16,1297.32
2838.45,1324.46
2839.73,1269.82
2841.02,1290.9
2842.3,1366.26
2843.59,1323.92
2844.87,1315.9
2846.15,1322.72
2847.44,1353.2
2848.72,1355.92
2850.0,1435.2
2851.28,1373.88
2852.56,1375.46
2853.84,1417.52
2855.12,1538.4
2856.4,1405.52
2857.68,1337.0
2858.95,1328.32
2860.23,1386.08
2861.51,1426.3
2862.78,1438.36
2864.06,1474.76
2865.34,1498.62
2866.61,1511.82
2867.89,1548.42
2869.16,1473.78
2870.43,1498.3
2871.71,1497.34
2872.98,1491.92
2874.25,1470.52
2875.52,1483.4
2876.79,1469.4
2878.06,1464.04
2879.33,1463.16
2880.6,1476.3
2881.87,1383.8
2883.14,1435.98
2884.41,1341.08
2885.68,1384.5
2886.94,1385.84
2888.21,1359.02
2889.48,1363.66
2890.74,1356.34
2892.01,1336.22
2893.27,1402.42
2894.54,1441.42
2895.8,1412.82
2897.06,1356.32
2898.33,1351.14
2899.59,1349.66
2900.85,1350.5
2902.11,1346.9
2903.37,1348.52
2904.63,1450.2
2905.89,1351.9
2907.15,1356.28
2908.41,1413.78
2909.67,1406.88
2910.93,1379.88
2912.19,1373.76
2913.44,1378.46
2914.7,1536.1
2915.96,1396.04
2917.21,1391.78
2918.47,1417.94
2919.72,1543.72
2920.98,1417.04
2922.23,1428.24
2923.48,1481.02
2924.74,1403.68
2925.99,1410.42
2927.24,1397.42
2928.49,1359.26
2929.74,1444.64
2930.99,1568.86
2932.24,1358.66
2933.49,1387.12
2934.74,1618.1
2935.99,1401.08
2937.24,1497.18
2938.48,1408.48
2939.73,1453.36
2940.98,1410.6
2942.22,1372.06
2943.47,1378.2
2944.72,1349.5
2945.96,1360.36
2947.2,1410.88
2948.45,1432.54
2949.69,1423.74
2950.93,1407.82
2952.18,1408.2
2953.42,1451.16
2954.66,1438.52
2955.9,1388.6
2957.14,1389.0
2958.38,1379.32
2959.62,1391.86
2960.86,1355.82
2962.1,1346.34
2963.34,1422.78
2964.57,1326.66
2965.81,1415.42
2967.05,1346.22
2968.28,1666.94
2969.52,1278.96
2970.75,1268.92
2971.99,1308.76
2973.22,1302.54
2974.46,1265.02
2975.69,1258.48
2976.92,1342.2
2978.16,1288.44
2979.39,1283.08
2980.62,1370.58
2981.85,1361.06
2983.08,1243.46
2984.31,1257.8
2985.54,1228.78
2986.77,1276.98
2988.0,1366.94
2989.23,1242.94
2990.46,1246.58
2991.68,1328.32
2992.91,1255.1
2994.14,1281.28
2995.36,1235.04
2996.59,1276.14
2997.81,1247.02
2999.04,1243.28
3000.26,1229.74
3001.48,1287.36
3002.71,1280.88
3003.93,1268.46
3005.15,1229.94
3006.37,1255.68
3007.6,1247.1
3008.82,1235.88
3010.04,1314.56
3011.26,1233.36
3012.48,1248.62
3013.69,1330.36
3014.91,1217.14
3016.13,1207.64
3017.35,1231.82
3018.57,1237.3
3019.78,1269.06
3021.0,1249.18
3022.21,1199.94
3023.43,1266.22
3024.64,1217.28
3025.86,1224.24
3027.07,1187.4
3028.29,1249.72
3029.5,1198.04
3030.71,1238.08
3031.92,1207.68
3033.13,1190.5
3034.35,1227.5
3035.56,1236.92
3036.77,1198.22
3037.98,1290.72
3039.19,1271.38
3040.39,1266.9
3041.6,1259.12
3042.81,1313.38
3044.02,1259.16
3045.22,1290.56
3046.43,1371.54
3047.64,1297.5
3048.84,1299.74
3050.05,1280.96
3051.25,1237.5
3052.46,1323.08
3053.66,1322.58
3054.86,1210.6
3056.07,1252.74
3057.27,1250.74
3058.47,1262.14
3059.67,1265.34
3060.87,1241.94
3062.07,1314.18
3063.27,1292.96
3064.47,1310.66
3065.67,1256.76
3066.87,1250.38
3068.07,1213.68
3069.27,1258.18
3070.47,1339.74
3071.66,1206.4
3072.86,1254.04
3074.05,1241.54
3075.25,1184.86
3076.45,1304.44
3077.64,1263.42
3078.83,1179.88
3080.03,1188.4
3081.22,1279.18
3082.41,1338.34
3083.61,1217.5
3084.8,1211.66
3085.99,1162.28
3087.18,1172.64
3088.37,1186.32
3089.56,1180.72
3090.75,1234.86
3091.94,1216.14
3093.13,1229.06
3094.32,1263.16
3095.51,1211.64
3096.69,1214.96
3097.88,1216.08
3099.07,1210.3
3100.25,1189.28
3101.44,1178.84
3102.62,1180.02
3103.81,1227.12
3104.99,1322.26
3106.18,1180.52
3107.36,1178.96
3108.54,1192.08
3109.72,1192.48
3110.91,1235.36
3112.09,1169.44
3113.27,1183.4
3114.45,1183.08
3115.63,1203.46
3116.81,1204.1
3117.99,1231.28
3119.17,1261.6
3120.35,1316.04
3121.52,1226.18
3122.7,1362.18
3123.88,1233.58
3125.06,1176.2
3126.23,1232.5
3127.41,1199.5
3128.58,1174.98
3129.76,1244.0
3130.93,1212.14
3132.11,1213.98
3133.28,1277.98
3134.45,1186.86
3135.63,1168.28
3136.8,1195.64
3137.97,1304.64
3139.14,1203.44
3140.31,1241.14
3141.48,1183.28
3142.65,1300.44
3143.82,1274.54
3144.99,1248.62
3146.16,1181.4
3147.33,1162.08
3148.5,1179.44
3149.66,1174.14
3150.83,1189.48
3152.0,1221.56
3153.16,1220.48
3154.33,1265.64
3155.49,1256.1
3156.66,1257.42
3157.82,1247.84
3158.99,1185.92
3160.15,1212.7
3161.31,1200.84
3162.47,1168.94
3163.64,1200.94
3164.8,1207.08
3165.96,1213.58
3167.12,1236.2
3168.28,1208.82
3169.44,1195.36
3170.6,1172.62
3171.76,1160.84
3172.92,1172.36
3174.08,1245.1
3175.23,1210.62
3176.39,1242.56
3177.55,1202.84
3178.7,1468.5
3179.86,1209.64
3181.01,1177.48
3182.17,1194.66
3183.32,1243.1
3184.48,1198.82
3185.63,1261.82
3186.79,1235.94
3187.94,1318.4
3189.09,1370.54
3190.24,1349.14
3191.39,1251.44
3192.55,1181.72
3193.7,1164.66
3194.85,1232.92
3196.0,1246.08
3197.15,1324.22
3198.29,1272.04
3199.44,1209.26